Experiment,Period,Subject,Value,BidC3_o,,BidNC,Market,BidC3,BidC6,Ncont,Size6,Vh,BidC6
3,5,1,9.21,8,.,.,1,8,8.5,0,0,30,8.5
3,5,2,4.38,4,.,.,0,4,4.25,0,0,30,4.25
3,5,3,28.05,21.05,.,.,0,21.05,22.05,0,0,30,22.05
3,5,4,26.44,20.44,.,.,1,20.44,21.44,0,0,30,21.44
3,5,5,21.49,18.49,.,.,0,18.49,19.49,0,0,30,19.49
3,5,6,26.88,22.89,.,.,1,22.89,24.89,0,0,30,24.89
3,6,1,29.97,20.97,.,.,2,20.97,23.07,0,1,30,23.07
3,6,2,20.13,17.13,.,.,2,17.13,18.13,0,1,30,18.13
3,6,3,12.46,10,.,.,2,10,11,0,1,30,11
3,6,4,14.16,12.16,.,.,2,12.16,12.16,0,1,30,12.16
3,6,5,4.63,4,.,.,2,4,4,0,1,30,4
3,6,6,19.04,17.05,.,.,2,17.05,18.05,0,1,30,18.05
3,7,1,13.43,11.33,.,.,2,11.33,12.33,0,1,30,12.33
3,7,2,16.06,13.06,.,.,2,13.06,14.06,0,1,30,14.06
3,7,3,20.04,15,.,.,2,15,16,0,1,30,16
3,7,4,24.85,21.85,.,.,2,21.85,22.85,0,1,30,22.85
3,7,5,2.53,2,.,.,2,2,2,0,1,30,2
3,7,6,29.78,22.78,.,.,2,22.78,23.78,0,1,30,23.78
3,8,1,24.11,20.01,.,.,2,20.01,22.01,0,1,30,22.01
3,8,2,17.26,14.26,.,.,2,14.26,16.26,0,1,30,16.26
3,8,3,23.78,20.78,.,.,2,20.78,23,0,1,30,23
3,8,4,25.18,21.18,.,.,2,21.18,22.48,0,1,30,22.48
3,8,5,22.47,19.47,.,.,2,19.47,20.47,0,1,30,20.47
3,8,6,5.38,3,.,.,2,3,4,0,1,30,4
3,9,1,13.07,12,.,12,2,12,12.57,1,1,30,12.57
3,9,2,23.21,21.21,.,21.71,2,21.21,22.21,1,1,30,22.21
3,9,3,7.11,7,.,7,2,7,7,1,1,30,7
3,9,4,21.47,18.47,.,19.47,2,18.47,19.47,1,1,30,19.47
3,9,5,9.18,7.18,.,7.18,2,7.18,8.18,1,1,30,8.18
3,9,6,11.58,10.58,.,11.08,2,10.58,11.08,1,1,30,11.08
3,10,1,17.11,15.01,.,16.01,2,15.01,16.51,0,1,30,16.51
3,10,2,12.24,11.24,.,11.49,2,11.24,11.74,0,1,30,11.74
3,10,3,28.09,22.09,.,23.09,2,22.09,23.09,0,1,30,23.09
3,10,4,2.23,2,.,2,2,2,2,0,1,30,2
3,10,5,22,19,.,19,2,19,20,0,1,30,20
3,10,6,25.99,22.99,.,23.99,2,22.99,23.99,0,1,30,23.99
3,11,1,26.67,21.07,.,22.67,2,21.07,23.07,0,1,30,23.07
3,11,2,19.4,18.4,.,18.65,2,18.4,18.9,0,1,30,18.9
3,11,3,15.3,12.3,.,15,2,12.3,15,0,1,30,15
3,11,4,11.76,8,.,8.76,2,8,9,0,1,30,9
3,11,5,9.3,8.3,.,8.3,2,8.3,8.3,0,1,30,8.3
3,11,6,11.19,10.17,.,10.19,2,10.17,10.19,0,1,30,10.19
3,12,1,28,21.5,.,23,2,21.5,23.5,0,1,30,23.5
3,12,2,16.89,14.89,.,15.39,2,14.89,15.89,0,1,30,15.89
3,12,3,22.24,20.24,.,20.24,2,20.24,22,0,1,30,22
3,12,4,6.28,6.28,.,6.28,2,6.28,6.28,0,1,30,6.28
3,12,5,24.41,20.41,.,20.41,2,20.41,21.41,0,1,30,21.41
3,12,6,29.2,22.2,.,23.2,2,22.2,23.2,0,1,30,23.2
3,13,1,17.13,15.13,.,16.03,2,15.13,16.53,1,1,30,16.53
3,13,2,2.16,2,.,2.04,2,2,2.08,1,1,30,2.08
3,13,3,11.31,11,.,10,2,11,11,1,1,30,11
3,13,4,6.09,1,.,1.09,2,1,1.09,1,1,30,1.09
3,13,5,25.49,22.49,.,23.49,2,22.49,23.49,1,1,30,23.49
3,13,6,5.54,5,.,5,2,5,5,1,1,30,5
3,14,1,4.63,4,.,4,1,4,4,1,0,30,4
3,14,2,9.11,8.61,.,8.91,0,8.61,9,1,0,30,9
3,14,3,7.54,7,.,7,0,7,7,1,0,30,7
3,14,4,22.7,18.7,.,20.7,1,18.7,19.7,1,0,30,19.7
3,14,5,5.19,4.19,.,4.19,0,4.19,4.19,1,0,30,4.19
3,14,6,15.09,13.09,.,14.09,1,13.09,14.09,1,0,30,14.09
3,15,1,16.2,14.2,.,15.2,1,14.2,15.7,1,0,30,15.7
3,15,2,23.53,19.53,.,20.53,0,19.53,21.53,1,0,30,21.53
3,15,3,20.28,19,.,19,1,19,19,1,0,30,19
3,15,4,9.23,8,.,8.23,0,8,8.23,1,0,30,8.23
3,15,5,18.95,14.95,.,14.95,0,14.95,16,1,0,30,16
3,15,6,22.22,20.22,.,21.22,1,20.22,21.22,1,0,30,21.22
3,16,1,16.34,14.34,.,15.34,0,14.34,15.84,1,0,30,15.84
3,16,2,14.93,12.93,.,13.43,1,12.93,13.93,1,0,30,13.93
3,16,3,28.9,23.9,.,24.9,1,23.9,24.9,1,0,30,24.9
3,16,4,7.09,6,.,6.09,0,6,6.09,1,0,30,6.09
3,16,5,26.95,22,.,22,0,22,23,1,0,30,23
3,16,6,2.32,0.32,.,1.32,1,0.32,1.32,1,0,30,1.32
3,17,1,13.37,11.67,.,12.37,0,11.67,12.87,1,0,30,12.87
3,17,2,6.04,5.04,.,5.29,1,5.04,5.54,1,0,30,5.54
3,17,3,12.93,11,.,10,1,11,12,1,0,30,12
3,17,4,14.19,12,.,12.19,0,12,12.19,1,0,30,12.19
3,17,5,18.73,15.73,.,15.73,1,15.73,16.73,1,0,30,16.73
3,17,6,0.43,0.05,.,0.05,0,0.05,0.05,1,0,30,0.05
3,18,1,9.44,8.44,.,9.04,1,8.44,9.04,0,0,30,9.04
3,18,2,28.52,21.52,.,23.02,0,21.52,24.52,0,0,30,24.52
3,18,3,22.99,20.99,.,20,0,20.99,21.49,0,0,30,21.49
3,18,4,10.54,8.54,.,9.54,1,8.54,9,0,0,30,9
3,18,5,9.41,8.41,.,8.41,0,8.41,8.41,0,0,30,8.41
3,18,6,6.81,4.81,.,5.81,1,4.81,5.81,0,0,30,5.81
3,19,1,29.9,22.9,.,23.9,2,22.9,23.9,0,1,30,23.9
3,19,2,7.55,7,.,7.14,2,7,7.25,0,1,30,7.25
3,19,3,17.24,15,.,15.5,2,15,16,0,1,30,16
3,19,4,12.8,10.8,.,11,2,10.8,11,0,1,30,11
3,19,5,20.08,16.08,.,16.08,2,16.08,17.08,0,1,30,17.08
3,19,6,19.91,16.91,.,17.91,2,16.91,17.91,0,1,30,17.91
3,20,1,4.6,4,.,4,2,4,4,0,1,30,4
3,20,2,5.78,5,.,5.25,2,5,5.5,0,1,30,5.5
3,20,3,12.94,10.94,.,12.5,2,10.94,11.94,0,1,30,11.94
3,20,4,26.27,22.27,.,23.47,2,22.27,23.47,0,1,30,23.47
3,20,5,8.76,7.76,.,7.76,2,7.76,7.76,0,1,30,7.76
3,20,6,25.23,21.23,.,23.23,2,21.23,23.23,0,1,30,23.23
3,21,1,14.86,12.86,.,12.86,2,12.86,14.06,1,1,30,14.06
3,21,2,13.31,11.31,.,11.81,2,11.31,12.31,1,1,30,12.31
3,21,3,6.38,6,.,6,2,6,6,1,1,30,6
3,21,4,15.42,13.42,.,14.42,2,13.42,14,1,1,30,14
3,21,5,9.41,8.41,.,8.41,2,8.41,8.41,1,1,30,8.41
3,21,6,7.21,5.21,.,6.21,2,5.21,6.21,1,1,30,6.21
3,22,1,6.45,6,.,6,1,6,6,1,0,30,6
3,22,2,0.46,0.45,.,0.45,1,0.45,0.45,1,0,30,0.45
3,22,3,25.89,22.89,.,23.89,0,22.89,23.89,1,0,30,23.89
3,22,4,14.09,12.09,.,13.09,0,12.09,13,1,0,30,13
3,22,5,15.02,13.02,.,13.02,0,13.02,14.02,1,0,30,14.02
3,22,6,12.19,11.19,.,11.69,1,11.19,11.69,1,0,30,11.69
3,23,1,18.53,15.53,.,16.53,2,15.53,17.53,1,1,30,17.53
3,23,2,14.49,13.49,.,13.76,2,13.49,13.99,1,1,30,13.99
3,23,3,29.86,22.86,.,23.5,2,22.86,23.86,1,1,30,23.86
3,23,4,23.02,20.02,.,21.42,2,20.02,21.02,1,1,30,21.02
3,23,5,18.46,13.46,.,13.46,2,13.46,15.46,1,1,30,15.46
3,23,6,29.52,24.52,.,25.52,2,24.52,25.52,1,1,30,25.52
3,24,1,13.21,11.21,.,11.21,2,11.21,12.71,1,1,30,12.71
3,24,2,19.82,17.82,.,18.32,2,17.82,18.82,1,1,30,18.82
3,24,3,3.15,3,.,3,2,3,3,1,1,30,3
3,24,4,27.55,22.55,.,24,2,22.55,23.55,1,1,30,23.55
3,24,5,26.59,21.59,.,21.59,2,21.59,23.59,1,1,30,23.59
3,24,6,6.23,5.23,.,5.73,2,5.23,5.73,1,1,30,5.73
3,25,1,12.8,10.8,.,10.8,2,10.8,12.1,0,1,30,12.1
3,25,2,24.26,20.26,.,21.26,2,20.26,22.26,0,1,30,22.26
3,25,3,4.6,4,.,4,2,4,4,0,1,30,4
3,25,4,4.66,3,.,3.66,2,3,3.66,0,1,30,3.66
3,25,5,19.11,15.11,.,15.11,2,15.11,16.11,0,1,30,16.11
3,25,6,29.67,24.67,.,25.67,2,24.67,25.67,0,1,30,25.67
3,26,1,7.97,7.07,.,7.07,2,7.07,7.07,0,1,30,7.07
3,26,2,2.85,2.75,.,2.78,2,2.75,2.8,0,1,30,2.8
3,26,3,15.72,14,.,14.25,2,14,14.5,0,1,30,14.5
3,26,4,19.17,17.17,.,18,2,17.17,18,0,1,30,18
3,26,5,18.44,14.44,.,14.44,2,14.44,16.44,0,1,30,16.44
3,26,6,28.86,23.86,.,25.36,2,23.86,25.36,0,1,30,25.36
3,27,1,5.95,5,.,5,1,5,5,1,0,30,5
3,27,2,11.35,10.35,.,10.55,0,10.35,10.85,1,0,30,10.85
3,27,3,27.44,23,.,24.5,1,23,24.5,1,0,30,24.5
3,27,4,24.88,22,.,22.98,0,22,22.88,1,0,30,22.88
3,27,5,5.95,4.95,.,4.95,1,4.95,4.95,1,0,30,4.95
3,27,6,24.15,22.15,.,22.65,0,22.15,22.65,1,0,30,22.65
3,28,1,25.43,22.43,.,22.43,2,22.43,23.03,1,1,30,23.03
3,28,2,24.21,20.21,.,21.21,2,20.21,22.21,1,1,30,22.21
3,28,3,8.12,8,.,8,2,8,8,1,1,30,8
3,28,4,16.8,14.8,.,15.8,2,14.8,15,1,1,30,15
3,28,5,19.61,15.61,.,15.61,2,15.61,16.61,1,1,30,16.61
3,28,6,0.27,0.07,.,0.17,2,0.07,0.17,1,1,30,0.17
4,5,1,9.26,6.69,.,.,1,6.69,6.93,0,0,30,6.93
4,5,2,4.26,3.7,.,.,0,3.7,3.9,0,0,30,3.9
4,5,3,0.95,0.45,.,.,1,0.45,0.35,0,0,30,0.35
4,5,4,7.14,6,.,.,1,6,6.64,0,0,30,6.64
4,5,5,3.21,3,.,.,0,3,3,0,0,30,3
4,5,6,23.45,21,.,.,0,21,21.45,0,0,30,21.45
4,6,1,21.68,17.83,.,.,2,17.83,17.79,0,1,30,17.79
4,6,2,26.27,23,.,.,2,23,24,0,1,30,24
4,6,3,27.03,22.03,.,.,2,22.03,23.03,0,1,30,23.03
4,6,4,25.07,18.07,.,.,2,18.07,20.57,0,1,30,20.57
4,6,5,10.93,9,.,.,2,9,9,0,1,30,9
4,6,6,6.1,5.5,.,.,2,5.5,5.75,0,1,30,5.75
4,7,1,2.49,1.28,.,.,0,1.28,1.29,0,0,30,1.29
4,7,2,10.71,6,.,.,1,6,7,0,0,30,7
4,7,3,6.33,5,.,.,1,5,5.33,0,0,30,5.33
4,7,4,28.01,20.01,.,.,0,20.01,23.01,0,0,30,23.01
4,7,5,8.04,7.5,.,.,0,7.5,7.5,0,0,30,7.5
4,7,6,1.04,0.9,.,.,1,0.9,0.94,0,0,30,0.94
4,8,1,20.17,17.2,.,.,0,17.2,18.17,0,0,30,18.17
4,8,2,16.51,11.8,.,.,1,11.8,12.5,0,0,30,12.5
4,8,3,17.99,15,.,.,1,15,15,0,0,30,15
4,8,4,12.39,7.39,.,.,0,7.39,10.09,0,0,30,10.09
4,8,5,24.67,20,.,.,0,20,20,0,0,30,20
4,8,6,29.23,25,.,.,1,25,26,0,0,30,26
4,9,1,6.08,4.08,.,3.66,2,4.08,4.06,0,1,30,4.06
4,9,2,18.47,15,.,15.5,2,15,16,0,1,30,16
4,9,3,1.96,1,.,1.25,2,1,1.5,0,1,30,1.5
4,9,4,27.31,19.31,.,22,2,19.31,23.81,0,1,30,23.81
4,9,5,13.15,12,.,12,2,12,12,0,1,30,12
4,9,6,11.73,10.5,.,11,2,10.5,11,0,1,30,11
4,10,1,29.04,24.04,.,23.16,1,24.04,25.04,0,0,30,25.04
4,10,2,27.9,23,.,23.5,1,23,24,0,0,30,24
4,10,3,27.33,22.33,.,22.33,0,22.33,22.33,0,0,30,22.33
4,10,4,17.23,13,.,14,0,13,15.23,0,0,30,15.23
4,10,5,3.34,3,.,3,1,3,3,0,0,30,3
4,10,6,29.72,26,.,27,0,26,27,0,0,30,27
4,11,1,21.96,19.01,.,16.96,2,19.01,19.96,1,1,30,19.96
4,11,2,13.7,11,.,11.5,2,11,12,1,1,30,12
4,11,3,1.25,0.5,.,0.6,2,0.5,0.75,1,1,30,0.75
4,11,4,3.95,2.7,.,2.75,2,2.7,3.7,1,1,30,3.7
4,11,5,21.7,20.05,.,20.05,2,20.05,20.05,1,1,30,20.05
4,11,6,24.89,22,.,23,2,22,23,1,1,30,23
4,12,1,11.04,3.33,.,6.66,2,3.33,9.33,0,1,30,9.33
4,12,2,4.51,2.25,.,2.75,2,2.25,3,0,1,30,3
4,12,3,11.05,6.05,.,8.05,2,6.05,10.05,0,1,30,10.05
4,12,4,26.27,18.77,.,21.07,2,18.77,22.07,0,1,30,22.07
4,12,5,15.23,14.5,.,14.5,2,14.5,14.5,0,1,30,14.5
4,12,6,18.07,16,.,17.07,2,16,17.07,0,1,30,17.07
4,13,1,27.99,23.23,.,24,2,23.23,23.86,0,1,30,23.86
4,13,2,29.28,24.28,.,25,2,24.28,25.28,0,1,30,25.28
4,13,3,25.58,20.58,.,19,2,20.58,21,0,1,30,21
4,13,4,12.64,10.04,.,10.64,2,10.04,11.04,0,1,30,11.04
4,13,5,2.62,2.5,.,2.5,2,2.5,2.5,0,1,30,2.5
4,13,6,26,24.5,.,24.5,2,24.5,24.5,0,1,30,24.5
4,14,1,5.24,3.33,.,3.24,2,3.33,3.33,1,1,30,3.33
4,14,2,4.61,3.5,.,3.75,2,3.5,4,1,1,30,4
4,14,3,12.85,7.85,.,9.35,2,7.85,10.85,1,1,30,10.85
4,14,4,20.29,15.29,.,16.29,2,15.29,19.09,1,1,30,19.09
4,14,5,23.7,20.7,.,21.2,2,20.7,21.2,1,1,30,21.2
4,14,6,9.96,8.96,.,9,2,8.96,9,1,1,30,9
4,15,1,5.25,3.33,.,3.33,0,3.33,3.33,0,0,30,3.33
4,15,2,6.59,5.5,.,5.75,1,5.5,6,0,0,30,6
4,15,3,28.1,23.1,.,23.85,1,23.1,25.6,0,0,30,25.6
4,15,4,18.61,15.81,.,16.01,1,15.81,16.81,0,0,30,16.81
4,15,5,5.84,5,.,5,0,5,5,0,0,30,5
4,15,6,1.16,1,.,1.06,0,1,1.06,0,0,30,1.06
4,16,1,27.69,24.09,.,21.52,2,24.09,25.69,1,1,30,25.69
4,16,2,25.41,20,.,22,2,20,23,1,1,30,23
4,16,3,22.06,17.06,.,17.81,2,17.06,19.56,1,1,30,19.56
4,16,4,13.46,11.06,.,11.46,2,11.06,13.06,1,1,30,13.06
4,16,5,1.61,1,.,1,2,1,1,1,1,30,1
4,16,6,7.77,7,.,7.27,2,7,7.27,1,1,30,7.27
4,17,1,26.6,22.6,.,23.29,0,22.6,23.23,1,0,30,23.23
4,17,2,3.11,2.5,.,2.67,0,2.5,2.75,1,0,30,2.75
4,17,3,4.18,3.18,.,3.43,0,3.18,3.68,1,0,30,3.68
4,17,4,12.78,8.08,.,8.08,1,8.08,10.08,1,0,30,10.08
4,17,5,22.48,19.08,.,20.08,1,19.08,20.08,1,0,30,20.08
4,17,6,21.85,20,.,20.5,1,20,20.85,1,0,30,20.85
4,18,1,9.59,7.71,.,8,1,7.71,7.77,1,0,30,7.77
4,18,2,10.65,9,.,9.25,0,9,9.5,1,0,30,9.5
4,18,3,19.5,14.5,.,15.75,1,14.5,17,1,0,30,17
4,18,4,7.19,6.09,.,6.09,0,6.09,6.89,1,0,30,6.89
4,18,5,9.69,8,.,7.999,1,8,8,1,0,30,8
4,18,6,7.3,7,.,7.05,0,7,7.05,1,0,30,7.05
4,19,1,21.4,17.8,.,13,1,17.8,18.03,1,0,30,18.03
4,19,2,0.5,0.49,.,0.49,0,0.49,0.49,1,0,30,0.49
4,19,3,3.56,3,.,3.12,0,3,3.25,1,0,30,3.25
4,19,4,13.35,9.35,.,9.85,1,9.35,11.15,1,0,30,11.15
4,19,5,21.33,19.5,.,20.03,0,19.5,20.03,1,0,30,20.03
4,19,6,9.89,9.05,.,9.3,1,9.05,9.3,1,0,30,9.3
4,20,1,21.73,17.37,.,14.45,0,17.37,18.75,1,0,30,18.75
4,20,2,11.25,10,.,10.25,0,10,10.5,1,0,30,10.5
4,20,3,1.68,1.18,.,1.3,1,1.18,1.43,1,0,30,1.43
4,20,4,20.08,15.08,.,17.58,1,15.08,18.58,1,0,30,18.58
4,20,5,29.8,22.8,.,23.8,0,22.8,23.8,1,0,30,23.8
4,20,6,0.11,0.1,.,0.1,1,0.1,0.1,1,0,30,0.1
4,21,1,0.28,0.27,.,0.27,0,0.27,0.27,0,0,30,0.27
4,21,2,17.17,14,.,15,1,14,16,0,0,30,16
4,21,3,26.09,21.09,.,21.84,1,21.09,23.59,0,0,30,23.59
4,21,4,11.79,8.79,.,8.99,0,8.79,10.09,0,0,30,10.09
4,21,5,7.64,6.5,.,6.5,0,6.5,6.5,0,0,30,6.5
4,21,6,28.59,26,.,26.59,1,26,26.59,0,0,30,26.59
4,22,1,12.33,10,.,10.33,2,10,10.33,1,1,30,10.33
4,22,2,0.97,0.96,.,0.96,2,0.96,0.96,1,1,30,0.96
4,22,3,8.38,8,.,8,2,8,8,1,1,30,8
4,22,4,16.04,12.54,.,12.54,2,12.54,15.14,1,1,30,15.14
4,22,5,8.76,7.5,.,7.5,2,7.5,7.5,1,1,30,7.5
4,22,6,24.1,22.6,.,23.1,2,22.6,23.1,1,1,30,23.1
4,23,1,28.38,12.13,.,23.39,1,12.13,24.42,0,0,30,24.42
4,23,2,22.41,19.41,.,19.91,1,19.41,20.41,0,0,30,20.41
4,23,3,15.86,14.86,.,14.86,0,14.86,14.86,0,0,30,14.86
4,23,4,5.43,4.13,.,4.33,0,4.13,4.93,0,0,30,4.93
4,23,5,23.34,19.34,.,20.54,1,19.34,20.54,0,0,30,20.54
4,23,6,19.64,18.64,.,19.04,0,18.64,19.04,0,0,30,19.04
4,24,1,7.74,5.52,.,7.01,2,5.52,6.99,0,1,30,6.99
4,24,2,13.75,10,.,10.25,2,10,10.5,0,1,30,10.5
4,24,3,0.68,0.63,.,0.63,2,0.63,0.63,0,1,30,0.63
4,24,4,23.11,16.11,.,18.51,2,16.11,19.11,0,1,30,19.11
4,24,5,28.4,22.4,.,22.4,2,22.4,23.4,0,1,30,23.4
4,24,6,13.19,12.59,.,12.59,2,12.59,12.59,0,1,30,12.59
4,25,1,17.01,13.13,.,12.01,2,13.13,15.01,0,1,30,15.01
4,25,2,3.8,3.5,.,3.6,2,3.5,3.7,0,1,30,3.7
4,25,3,25.98,20.98,.,21.23,2,20.98,23.48,0,1,30,23.48
4,25,4,16.64,12.64,.,13.64,2,12.64,14.64,0,1,30,14.64
4,25,5,4.7,4,.,4,2,4,4,0,1,30,4
4,25,6,13.69,13.09,.,13.09,2,13.09,13.09,0,1,30,13.09
4,26,1,18.86,13,.,15.01,2,13,15.87,0,1,30,15.87
4,26,2,22.82,19.82,.,20.82,2,19.82,21.82,0,1,30,21.82
4,26,3,19.43,16.93,.,17.68,2,16.93,18.18,0,1,30,18.18
4,26,4,3.27,2.77,.,2.77,2,2.77,3.02,0,1,30,3.02
4,26,5,25.7,20.7,.,21.7,2,20.7,21.7,0,1,30,21.7
4,26,6,10.17,9.5,.,10.07,2,9.5,10.07,0,1,30,10.07
4,27,1,25.83,20.87,.,16.13,1,20.87,22.21,1,0,30,22.21
4,27,2,7.26,6,.,6.5,0,6,7,1,0,30,7
4,27,3,28.87,23.87,.,23.87,0,23.87,23.87,1,0,30,23.87
4,27,4,3.02,2.52,.,2.52,0,2.52,2.8,1,0,30,2.8
4,27,5,27.84,21.84,.,22.84,1,21.84,22.84,1,0,30,22.84
4,27,6,0.9,0.55,.,0.55,1,0.55,0.55,1,0,30,0.55
4,28,1,21.46,16.41,.,16.43,2,16.41,16.47,1,1,30,16.47
4,28,2,14.17,13,.,13.25,2,13,13.5,1,1,30,13.5
4,28,3,25.87,20.87,.,20.87,2,20.87,20.87,1,1,30,20.87
4,28,4,14,12.5,.,12.5,2,12.5,13.25,1,1,30,13.25
4,28,5,24.32,19.32,.,20.32,2,19.32,20.32,1,1,30,20.32
4,28,6,16.81,15.01,.,15.51,2,15.01,15.51,1,1,30,15.51
5,5,1,0.13,0.01,.,.,0,0.01,0.01,0,0,30,0.01
5,5,2,15.5,12.5,.,.,0,12.5,13.5,0,0,30,13.5
5,5,3,10.1,8.1,.,.,0,8.1,9.1,0,0,30,9.1
5,5,4,11.11,8.11,.,.,1,8.11,9.11,0,0,30,9.11
5,5,5,0.72,0.02,.,.,1,0.02,0.02,0,0,30,0.02
5,5,6,6.96,5.96,.,.,1,5.96,6.46,0,0,30,6.46
5,6,1,20.24,17.04,.,.,2,17.04,17.05,0,1,30,17.05
5,6,2,18.42,14.4,.,.,2,14.4,15,0,1,30,15
5,6,3,13.41,10.41,.,.,2,10.41,11.41,0,1,30,11.41
5,6,4,7.13,4.13,.,.,2,4.13,4.63,0,1,30,4.63
5,6,5,17.41,15.01,.,.,2,15.01,15.01,0,1,30,15.01
5,6,6,11.38,10.08,.,.,2,10.08,9.08,0,1,30,9.08
5,7,1,15.81,13.04,.,.,2,13.04,13.05,0,1,30,13.05
5,7,2,15.25,12.25,.,.,2,12.25,13,0,1,30,13
5,7,3,10.21,8.21,.,.,2,8.21,8.21,0,1,30,8.21
5,7,4,22.92,17.92,.,.,2,17.92,19.02,0,1,30,19.02
5,7,5,23.44,20.02,.,.,2,20.02,20.02,0,1,30,20.02
5,7,6,17.29,14.09,.,.,2,14.09,14.29,0,1,30,14.29
5,8,1,28.9,22.04,.,.,2,22.04,22.05,0,1,30,22.05
5,8,2,5.79,5,.,.,2,5,5,0,1,30,5
5,8,3,25.63,21.63,.,.,2,21.63,22.63,0,1,30,22.63
5,8,4,16,11.1,.,.,2,11.1,13.51,0,1,30,13.51
5,8,5,28.37,24.03,.,.,2,24.03,24.03,0,1,30,24.03
5,8,6,25.65,19.65,.,.,2,19.65,21.65,0,1,30,21.65
5,9,1,29.99,24.04,.,.,0,24.04,24.05,0,0,30,24.05
5,9,2,10.6,8.6,.,.,0,8.6,8.6,0,0,30,8.6
5,9,3,7.6,6.6,.,.,0,6.6,6.6,0,0,30,6.6
5,9,4,2.15,1.15,.,.,1,1.15,1.65,0,0,30,1.65
5,9,5,22.13,20.01,.,.,1,20.01,20.01,0,0,30,20.01
5,9,6,10.55,8.55,.,.,1,8.55,7.55,0,0,30,7.55
5,10,1,13.26,12,.,.,2,12,12.01,0,1,30,12.01
5,10,2,7.56,5.56,.,.,2,5.56,6.56,0,1,30,6.56
5,10,3,5.65,4.65,.,.,2,4.65,4.65,0,1,30,4.65
5,10,4,11.1,8.1,.,.,2,8.1,9.1,0,1,30,9.1
5,10,5,0.79,0.72,.,.,2,0.72,0.72,0,1,30,0.72
5,10,6,13.31,11.31,.,.,2,11.31,10.31,0,1,30,10.31
5,11,1,15.82,14.04,.,.,2,14.04,14.24,0,1,30,14.24
5,11,2,27.07,21.07,.,.,2,21.07,22.07,0,1,30,22.07
5,11,3,28.52,22.52,.,.,2,22.52,23.52,0,1,30,23.52
5,11,4,19.57,15.57,.,.,2,15.57,17.07,0,1,30,17.07
5,11,5,27.72,23.03,.,.,2,23.03,24.03,0,1,30,24.03
5,11,6,18.69,15.39,.,.,2,15.39,15.69,0,1,30,15.69
5,12,1,12.97,11.01,.,.,2,11.01,11.02,0,1,30,11.02
5,12,2,10.07,8,.,.,2,8,9.07,0,1,30,9.07
5,12,3,29.83,22.83,.,.,2,22.83,24.83,0,1,30,24.83
5,12,4,27.38,19.38,.,.,2,19.38,23.51,0,1,30,23.51
5,12,5,13.41,11.02,.,.,2,11.02,11.02,0,1,30,11.02
5,12,6,10.75,9.75,.,.,2,9.75,8.75,0,1,30,8.75
5,13,1,10.4,9.99,.,9.99,2,9.99,9.99,0,1,30,9.99
5,13,2,27.19,21.19,.,22.19,2,21.19,22.19,0,1,30,22.19
5,13,2,27.29,20.29,.,21.29,2,20.29,22.29,0,1,30,22.29
5,13,4,8.26,5.26,.,5.76,2,5.26,6.76,0,1,30,6.76
5,13,5,5.67,4.6,.,4.6,2,4.6,4.6,0,1,30,4.6
5,13,6,12.73,10.73,.,10.73,2,10.73,10.73,0,1,30,10.73
5,14,1,28.38,23.04,.,23.06,0,23.04,23.05,1,0,30,23.05
5,14,2,14.35,12.35,.,13.35,0,12.35,13,1,0,30,13
5,14,2,28.41,21.41,.,22.41,0,21.41,22.41,1,0,30,22.41
5,14,4,24.35,18.35,.,21.35,1,18.35,22.35,1,0,30,22.35
5,14,5,19.04,16.04,.,17.04,1,16.04,17.04,1,0,30,17.04
5,14,6,21.67,15.67,.,17.07,1,15.67,19.67,1,0,30,19.67
5,15,1,10.76,9.76,.,9.77,2,9.76,9.77,1,1,30,9.77
5,15,2,23.01,20.01,.,20.01,2,20.01,20.01,1,1,30,20.01
5,15,3,18.94,15.49,.,16.49,2,15.49,16.49,1,1,30,16.49
5,15,4,1.75,0.75,.,0.85,2,0.75,1.5,1,1,30,1.5
5,15,5,6.23,4.9,.,4.9,2,4.9,4.9,1,1,30,4.9
5,15,6,7.05,3.05,.,2,2,3.05,2.05,1,1,30,2.05
5,16,1,3.38,3,.,3,0,3,3,1,0,30,3
5,16,2,29.79,23.79,.,24.79,0,23.79,24.79,1,0,30,24.79
5,16,3,14.27,10.27,.,10.27,0,10.27,12.27,1,0,30,12.27
5,16,4,4.7,2.7,.,2.75,1,2.7,4.1,1,0,30,4.1
5,16,5,21.23,19.04,.,18.04,1,19.04,18.04,1,0,30,18.04
5,16,6,19.38,17.08,.,16.58,1,17.08,16.08,1,0,30,16.08
5,17,1,17.38,15.04,.,15.06,2,15.04,15.05,0,1,30,15.05
5,17,2,28.52,23.52,.,23.52,2,23.52,23.52,0,1,30,23.52
5,17,3,17.45,13.45,.,13.45,2,13.45,15.45,0,1,30,15.45
5,17,4,6.84,4.04,.,4.84,2,4.04,5.84,0,1,30,5.84
5,17,5,23.07,20.07,.,20.07,2,20.07,20.07,0,1,30,20.07
5,17,6,21.22,18.02,.,17.52,2,18.02,17.02,0,1,30,17.02
5,18,1,19.14,17.22,.,17.14,2,17.22,17.23,1,1,30,17.23
5,18,2,19.17,17.17,.,18,2,17.17,18,1,1,30,18
5,18,3,17.44,13.44,.,13.44,2,13.44,15.44,1,1,30,15.44
5,18,4,18.22,14.02,.,15.02,2,14.02,16.02,1,1,30,16.02
5,18,5,17.14,15.07,.,15.07,2,15.07,15.07,1,1,30,15.07
5,18,6,3.16,0.01,.,0.01,2,0.01,0.01,1,1,30,0.01
5,19,1,27.68,23.04,.,23.21,2,23.04,23.05,0,1,30,23.05
5,19,2,28.15,23.15,.,23.15,2,23.15,23.15,0,1,30,23.15
5,19,3,14.95,10.95,.,10.95,2,10.95,12.95,0,1,30,12.95
5,19,4,11.66,8.06,.,8.66,2,8.06,10.06,0,1,30,10.06
5,19,5,22.05,20.06,.,20.06,2,20.06,20.06,0,1,30,20.06
5,19,6,12.96,10.06,.,9.56,2,10.06,9.06,0,1,30,9.06
5,20,1,8.56,6.66,.,7.77,0,6.66,6.66,1,0,30,6.66
5,20,2,25.05,21.05,.,21.75,0,21.05,22.05,1,0,30,22.05
5,20,3,21.08,16.08,.,16.08,0,16.08,18.08,1,0,30,18.08
5,20,4,24.15,17.15,.,22.65,1,17.15,23.15,1,0,30,23.15
5,20,5,23.68,20.6,.,21.6,1,20.6,21.6,1,0,30,21.6
5,20,6,7.94,6.04,.,5.05,1,6.04,5.04,1,0,30,5.04
5,21,1,9.66,8.67,.,8.67,2,8.67,8.67,1,1,30,8.67
5,21,2,21.82,19.82,.,19.82,2,19.82,19.82,1,1,30,19.82
5,21,3,29.06,23.06,.,23.06,2,23.06,24.06,1,1,30,24.06
5,21,4,14.26,10.21,.,10.26,2,10.21,13.01,1,1,30,13.01
5,21,5,29.24,24.24,.,24.24,2,24.24,24.24,1,1,30,24.24
5,21,6,27.14,21.14,.,24.14,2,21.14,23.14,1,1,30,23.14
5,22,1,0.24,0.01,.,0.01,0,0.01,0.01,1,0,30,0.01
5,22,2,17.98,15.98,.,15.98,0,15.98,16.98,1,0,30,16.98
5,22,3,7.47,5.47,.,5.47,0,5.47,6.47,1,0,30,6.47
5,22,4,3.41,2.16,.,2.16,1,2.16,3.16,1,0,30,3.16
5,22,5,25.38,22.38,.,23.38,1,22.38,23.38,1,0,30,23.38
5,22,6,20.61,17.61,.,18.01,1,17.61,17.11,1,0,30,17.11
5,23,1,25.8,21.8,.,21.8,0,21.8,21.8,0,0,30,21.8
5,23,2,22.2,19.2,.,19.2,0,19.2,20.2,0,0,30,20.2
5,23,3,23.83,18.83,.,18.83,0,18.83,20.83,0,0,30,20.83
5,23,4,19.83,14.33,.,15.83,1,14.33,17.33,0,0,30,17.33
5,23,5,25.47,22.48,.,22.48,1,22.48,22.48,0,0,30,22.48
5,23,6,19.14,17.14,.,15.14,1,17.14,18.14,0,0,30,18.14
5,24,1,15.78,13.2,.,13.22,2,13.2,13.21,0,1,30,13.21
5,24,2,7.1,6.1,.,6.1,2,6.1,6.1,0,1,30,6.1
5,24,3,27.09,23.09,.,23.09,2,23.09,23.09,0,1,30,23.09
5,24,4,8.89,6.09,.,6.09,2,6.09,7.09,0,1,30,7.09
5,24,5,8.95,8,.,8,2,8,8,0,1,30,8
5,24,6,15.42,11.42,.,11.92,2,11.42,10.42,0,1,30,10.42
